Folder: EuPd3S4Antiferromagnetism/Data/HeatCapacity

Note: README.md
Code and data from VCM for the paper "Formation of a simple cubic antiferromagnet through charge ordering in a double Dirac material." Contact vincent.morano1@psi.ch with any questions.

File: IQM_IQMPPMS_20200218_1_TB_0-DRHCtry2.dat
[Header]
TITLE	IQM_IQMPPMS_20200218_1_TB_0-DRHCtry2.dat
BYAPP	HeatCapacity	3.8.14	1.7
INFO	2.34	MASS:Sample Mass (mg)
INFO	0	MASSERR:Sample Mass Error (mg)
INFO	0	MOLWGHT:Formula Weight (g/mole)
INFO	0	ATOMS:Atoms per Formula Unit
INFO	PPMS Heat Capacity Option 3.8.14 Build 19	APPNAME
DATATYPE	TIME	1
DATATYPE	COMMENT	2
STARTUPAXIS	 X	8	 LINEAR	 AUTO
STARTUPAXIS	 Y1	10	 LINEAR	 AUTO
[Data]
Time Stamp (Seconds)	Comment ()	System Status (Code)	Puck Temp (Kelvin)	System Temp (Kelvin)	Field (Oersted)	Pressure (Torr)	Sample Temp (Kelvin)	Temp Rise (Kelvin)	Samp HC (J/g-K)	Samp HC Err (J/g-K)	Addenda HC (?J/K)	Addenda HC Err (?J/K)	Total HC (?J/K)	Total HC Err (?J/K)	Fit Deviation (ChiSquare)	Time Const tau1 (seconds)	Time Const tau2 (seconds)	Sample Coupling (Percent)	Debye Temp (Kelvin)	Debye Temp Err (Kelvin)	Cal Correction (Factor)	Therm Resist (Ohms)	Htr Resist (Ohms)	Puck Resist (Ohms)	Wire Cond (W/K)	Meas Time (seconds)	Temp Squared (K^2)	Samp HC/Temp (J/g-K/K)	Addenda Offset HC (?J/K)
4306685.22	CALFILE: DRPuck50_1.cal - Addenda #16 measured on 2/14/2020 from 0.087938 to 3.6029 K
4306685.52		4881	0	0.1099	90000.148	9.20E-06	0.0985369	0.001625306	0.000187331	1.98E-06	0.00099092	0.0001217	0.439346	0.004642	0.444938	116.708	0.005471613	97.8717	0	0	1				3.85E-09	295.3303	0.009709515	0.00190113	0
4313649.19		4881	0	0.12	90000.148	9.40E-06	0.107058	0.001892644	0.000158657	1.69E-06	0.001196043	-1.25E-06	0.372453	0.003957	0.862647	82.0334	0.003532623	98.63631	0	0	1				4.60E-09	247.341	0.0114615	0.001481968	0
4318863.33		4881	0	0.1439	90000.148	9.30E-06	0.128085	0.002312398	0.000107999	9.21E-07	0.001365485	7.16E-05	0.254083	0.002154	0.935755	41.7895	0.004393226	97.9939	0	0	1				6.20E-09	123.5955	0.0164058	0.000843181	0
4321181.61		4881	0	0.1731	90000.148	9.40E-06	0.153643	0.002773198	7.74E-05	1.14E-06	0.00160479	4.33E-05	0.182654	0.002656	1.876819	21.7936	0.004725201	97.4474	0	0	1				8.60E-09	63.04017	0.0236061	0.00050358	0
4322414.36		4881	0	0.1901	90000.148	9.30E-06	0.168719	0.003098733	6.61E-05	1.06E-06	0.001859849	0.0001651	0.156529	0.002477	1.060515	15.2896	0.002340242	98.6797	0	0	1				1.04E-08	46.10124	0.028466	0.000391763	0
4323575.09		4881	0	0.2271	90000.148	9.40E-06	0.201221	0.003899654	4.61E-05	1.05E-06	0.002341754	1.09E-05	0.110105	0.002466	1.045121	8.499372	0.0051473	97.0084	0	0	1				1.33E-08	23.97852	0.0404899	0.000228866	0
4324492.88		4881	0	0.2733	90000.148	9.20E-06	0.242097	0.004966488	3.58E-05	1.06E-06	0.002977789	0.0002584	0.0866557	0.00248	0.862109	4.42311	0.002530666	98.2492	0	0	1				1.99E-08	17.19539	0.0586111	0.000147708	0
4325000.98		4881	0	0.2991	90000.148	9.30E-06	0.265048	0.004934831	3.00E-05	6.96E-07	0.003580264	0.0003416	0.0737541	0.001628	1.30556	3.27218	0.004890789	96.6733	0	0	1				2.32E-08	9.7648	0.0702504	0.000113145	0
4325616.64		4881	0	0.3582	90000.148	9.20E-06	0.317019	0.005678242	2.33E-05	9.29E-07	0.004682598	0.0005299	0.0592472	0.002174	0.842724	1.82474	0.002337513	98.2178	0	0	1				3.30E-08	5.484664	0.1005009	7.36E-05	0
4326186.48		4881	0	0.4301	90000.148	9.30E-06	0.382081	0.006770535	1.95E-05	6.38E-07	0.006586357	0.0003044	0.0523138	0.001463	1.04005	1.07144	0	100	0	0	1				4.88E-08	4.110293	0.145986	5.11E-05	0
4326567.63		4881	0	0.4702	90000.148	9.40E-06	0.417994	0.006914144	1.81E-05	1.18E-06	0.007940273	0.0004962	0.0503778	0.002715	1.14248	0.865714	0	100	0	0	1				5.82E-08	2.957355	0.174719	4.34E-05	0
4327068.34		4881	0	0.5641	90000.148	9.30E-06	0.50183	0.007814125	1.65E-05	1.39E-06	0.0116022	0.0006251	0.0501632	0.003189	1.11283	0.609329	0	100	0	0	1				8.23E-08	1.976637	0.2518338	3.28E-05	0
4327565.94		4881	0	0.6771	90000.148	9.40E-06	0.60299	0.009845902	1.63E-05	8.91E-07	0.0168531	0.0008473	0.0549251	0.002086	0.921565	0.550409	0.005857506	95.0004	0	0	1				1.02E-07	1.671008	0.363597	2.70E-05	0
4327880		4881	0	0.7412	90000.148	9.20E-06	0.660982	0.01024182	1.67E-05	7.93E-07	0.0204096	0.000683	0.0595509	0.001856	1.01836	0.51225	0.004026245	96.5256	0	0	1				1.18E-07	1.44799	0.436897	2.53E-05	0
4328368.66		4881	0	0.8882	90000.148	9.30E-06	0.794195	0.0123174	2.13E-05	1.20E-06	0.0326225	0.001218	0.0825415	0.002804	1.34874	0.503066	0.001648047	98.6344	0	0	1				1.65E-07	1.541408	0.630746	2.69E-05	0
4328864.41		4881	0	1.0652	90000.148	9.30E-06	0.954475	0.0132089	4.05E-05	1.42E-06	0.0505708	0.001049	0.145274	0.003141	0.996189	0.646296	0	100	0	0	1				2.25E-07	1.664954	0.911023	4.24E-05	0
4339844		4881	0	1.1673	90000.148	9.30E-06	1.04838	0.015474	6.02E-05	2.51E-06	0.0658943	0.001687	0.206805	0.005624	1.03116	0.796413	0	100	0	0	1				2.60E-07	2.444324	1.09909	5.74E-05	0
4341556.56		4881	0	1.3992	90000.148	9.20E-06	1.26022	0.0190671	0.000153515	3.90E-06	0.107367	0.002887	0.466592	0.008659	0.857469	1.38933	0	100	0	0	1				3.36E-07	4.385175	1.588148	0.000121816	0
4342114.5		4881	0	1.678	90000.148	9.40E-06	1.51632	0.0212629	0.000364241	3.09E-06	0.182119	0.002234	1.034444	0.007223	0.888535	2.48286	0.002814352	99.2164	0	0	1				4.19E-07	5.750445	2.29922	0.000240215	0
4342531.56		4881	0	1.8365	90000.148	9.30E-06	1.664114	0.0252974	0.000531997	4.49E-06	0.238577	0.003482	1.48345	0.009915	0.995498	3.09387	0	100	0	0	1				4.79E-07	9.279143	2.76928	0.000319688	0
4343192.58		4881	0	2.2036	90000.148	9.40E-06	2.004652	0.0314146	0.001015916	7.14E-06	0.414849	0.006437	2.79209	0.01541	1.16223	4.72471	0	100	0	0	1				5.91E-07	14.15293	4.01863	0.000506779	0
4344235.55		4881	0	2.4001	90000.125	9.30E-06	2.19279	0.0348345	0.001291213	4.87E-06	0.54648	0.003605	3.56792	0.0108	0.86583	5.44259	0	100	0	0	1				6.56E-07	16.47407	4.80832	0.000588845	0
4344728.23		4881	0	2.4408	90000.125	9.30E-06	2.231	0.0365716	0.001362402	4.52E-06	0.576393	0.003246	3.76441	0.01057	1.63057	5.739599	0.005622129	99.2421	0	0	1				6.59E-07	17.01777	4.97738	0.000610668	0
4345392.58		4881	0	2.5241	90000.125	9.20E-06	2.30602	0.0363666	0.001500214	5.44E-06	0.63917	0.003286	4.14967	0.0123	1.847786	5.94856	0	100	0	0	1				6.98E-07	17.6862	5.31774	0.000650563	0
4346064.45		4881	0	2.6068	90000.125	9.30E-06	2.38617	0.0387076	0.001609344	4.82E-06	0.7105182	0.003844	4.47638	0.01129	0.417165	6.27837	0.002764239	99.6698	0	0	1				7.15E-07	18.43674	5.69379	0.000674447	0
4346586.8		4881	0	2.6485	90000.125	9.30E-06	2.42312	0.0399613	0.001682214	5.07E-06	0.745161	0.004135	4.681542	0.01186	0.994941	6.442005	0.00240716	99.7205	0	0	1				7.28E-07	19.40161	5.87149	0.000694236	0
4348509.97		4881	0	2.7309	90000.125	9.20E-06	2.49777	0.0414037	0.001798375	5.47E-06	0.818375	0.00464	5.02657	0.01279	0.95205	6.74522	0.004160538	99.5466	0	0	1				7.48E-07	20.24839	6.23887	0.000719992	0
4352816.55		4881	0	2.8136	90000.125	9.30E-06	2.5791	0.0423579	0.001926329	6.38E-06	0.902184	0.005277	5.40979	0.01492	1.29471	7.0638	0.002441618	99.751	0	0	1				7.67E-07	20.57951	6.65173	0.000746901	0
4353731.41		4881	0	2.8552	90000.125	9.30E-06	2.61809	0.0432104	0.001985808	6.43E-06	0.944452	0.005601	5.59124	0.01504	0.651342	7.123871	0.002385967	99.7612	0	0	1				7.86E-07	21.23288	6.85437	0.000758496	0
4354448.75		4881	0	2.9382	90000.125	9.20E-06	2.700817	0.0440885	0.002097107	2.68E-06	1.039905	0.00627	5.94713	0	1.20877	7.38323	0	100	0	0	1				8.05E-07	22.15696	7.29441	0.000776471	0
4355172.75		4881	0	3.0207	90000.125	9.40E-06	2.77543	0.04464345	0.002235038	9.50E-06	1.13178	0.006871	6.36176	0.02113	0.8612046	7.64024	0	100	0	0	1				8.33E-07	22.37273	7.70302	0.000805294	0
4355741.86		4881	0	3.0619	90000.125	9.30E-06	2.81794	0.0473178	0.002277632	7.41E-06	1.18567	0.007216	6.51533	0.01733	1.27652	7.74356	0.001329763	99.8846	0	0	1				8.42E-07	23.27096	7.94077	0.000808262	0
4356477.41		4881	0	3.1449	90000.125	9.20E-06	2.8966	0.0473674	0.002394434	9.07E-06	1.29244	0.007829	6.89541	0.01974	1.00356	7.94161	0	100	0	0	1				8.68E-07	23.77505	8.39029	0.000826636	0
4357219.31		4881	0	3.228	90000.125	9.40E-06	2.97196	0.048073	0.002533286	1.05E-05	1.40068	0.008298	7.32857	0.02323	0.940883	8.2027	0	100	0	0	1				8.93E-07	24.09769	8.83252	0.000852397	0
4357810.42		4881	0	3.2693	90000.125	9.30E-06	3.01423	0.0497495	0.002582342	9.88E-06	1.46426	0.008478	7.50694	0.0215	1.00009	8.33579	0	100	0	0	1				9.01E-07	25.01383	9.08561	0.000856716	0
4358570.84		4881	0	3.352	90000.125	9.30E-06	3.09272	0.0522398	0.002706725	8.49E-06	1.58742	0.008669	7.92116	0.01987	0.970809	8.59033	0.004139585	99.69902	0	0	1				9.24E-07	25.55616	9.56492	0.000875192	0
4359332.03		4881	0	3.4336	90000.125	9.30E-06	3.16957	0.0531957	0.002818051	8.64E-06	1.71466	0.008781	8.308902	0.02022	0.880653	8.78152	0.002743501	99.8091	0	0	1				9.47E-07	25.96279	10.0462	0.000889095	0
4359937.02		4881	0	3.4753	90000.125	9.40E-06	3.20713	0.0545385	0.002853046	9.54E-06	1.77909	0.008845	8.45522	0.02233	1.50302	8.94241	0.006501448	99.5619	0	0	1				9.48E-07	26.38997	10.2857	0.000889596	0
4360840.2		4881	0	3.5586	90000.125	9.40E-06	3.28236	0.0542324	0.002973411	1.22E-05	1.91135	0.009064	8.86913	0.02714	1.52204	8.99463	0	100	0	0	1				9.86E-07	27.22284	10.7739	0.000905876	0
4361650.63		4881	0	3.6497	90000.125	9.30E-06	3.371551	0.0563275	0.003060354	1.24E-05	2.07276	0.009439	9.23399	0.02754	0.810583	9.19566	0	100	0	0	1				1.00E-06	27.86261	11.3674	0.000907699	0
4363319.08		4881	0	3.7995	90000.125	9.30E-06	3.51277	0.0593398	0.003220911	1.32E-05	2.34198	0.01018	9.87891	0.02918	1.0339	9.59495	0	100	0	0	1				1.03E-06	28.97237	12.3396	0.000916914	0
4363415.28		4881	0	3.8002	90000.125	9.30E-06	3.50891	0.0590673	0.00322675	1.21E-05	2.33443	0.01015	9.88502	0.02647	0.912185	9.64262	0	100	0	0	1				1.03E-06	28.78484	12.3125	0.000919587	0
4388386.59	CALFILE: DRPuck50_1.cal - Addenda #17 measured on 2/17/2020 from 0.10281 to 3.7677 K
4388386.67		4881	0	0.1097	50000.16	9.30E-06	0.104115	0.002135259	0.000229443	2.68E-06	0.001405427	6.03E-05	0.5383028	0.006261	0.701467	143.1	0.004433359	98.7959	0	0	1				3.81E-09	449.2182	0.0108399	0.002203755	0
4396387.19		4881	0	0.1232	50000.16	9.30E-06	0.1155644	0.002367951	0.000183153	2.23E-06	0.001690804	-1.05E-05	0.430268	0.005212	0.535046	94.5221	0.007260517	97.9981	0	0	1				4.64E-09	296.6748	0.0133551	0.001584855	0
4399877.64		4881	0	0.1379	50000.16	9.30E-06	0.1294392	0.002690002	0.000145383	1.15E-06	0.001992285	0.0001015	0.342189	0.002696	1.10289	63.3792	0.008301721	97.6847	0	0	1				5.53E-09	191.5123	0.0167545	0.001123177	0
4402557.05		4881	0	0.1719	50000.16	9.20E-06	0.160929	0.003314927	9.71E-05	1.11E-06	0.003600497	5.80E-06	0.2308989	0.002603	0.941527	28.11841	0.005874988	98.621	0	0	1				8.32E-09	82.85291	0.0258982	0.000603595	0
4403833.88		4881	0	0.192	50000.16	9.40E-06	0.179468	0.004003525	7.62E-05	9.57E-07	0.00387764	0.0002219	0.182213	0.002239	0.579102	19.8914	0.007888412	98.0615	0	0	1				9.33E-09	56.58723	0.0322087	0.000424653	0
4404850.39		4881	0	0.2149	50000.16	9.40E-06	0.200819	0.004361594	6.30E-05	1.02E-06	0.004554164	0.0002505	0.151864	0.002393	1.1613	12.284	0.004011584	98.866	0	0	1				1.25E-08	39.45821	0.0403283	0.000313481	0
4405896.5		4881	0	0.269	50000.16	9.40E-06	0.2505772	0.005064278	4.40E-05	7.30E-07	0.007927845	0.0004003	0.11083	0.001709	0.657674	5.62403	0.004004387	98.9194	0	0	1				1.99E-08	17.89106	0.0627889	0.000175495	0
4406414.34		4881	0	0.3002	50000.16	9.40E-06	0.279444	0.005841787	3.71E-05	6.54E-07	0.009283942	0.0004372	0.0960852	0.001529	0.974597	4.25892	0.006777834	98.155	0	0	1				2.29E-08	13.07609	0.0780887	0.000132744	0
4406874.97		4881	0	0.3359	50000.16	9.30E-06	0.312104	0.006034918	3.26E-05	9.65E-07	0.0116295	0.001031	0.0880078	0.002257	1.40292	2.97486	0.002179045	99.3592	0	0	1				2.97E-08	9.056293	0.097409	0.000104581	0
4407406.81		4881	0	0.42	50000.16	9.40E-06	0.390831	0.008096865	2.82E-05	5.10E-07	0.0172971	0.0005663	0.0831801	0.001194	1.52423	1.970685	0.006680365	97.9305	0	0	1				4.28E-08	6.916711	0.152749	7.20E-05	0
4407742.56		4881	0	0.469	50000.16	9.40E-06	0.436386	0.008138129	3.02E-05	8.27E-07	0.0196438	0.0009495	0.0903693	0.001934	1.23238	1.714708	0.005461084	98.1196	0	0	1				5.33E-08	5.087987	0.190433	6.93E-05	0
4408076.03		4881	0	0.525	50000.16	9.40E-06	0.48845	0.009095347	3.75E-05	9.19E-07	0.0204633	0.000899	0.108157	0.002151	0.938892	1.70506	0.005318794	97.9529	0	0	1				6.43E-08	4.971186	0.238583	7.67E-05	0
4408593.31		4881	0	0.6562	50000.16	9.30E-06	0.610429	0.009899995	8.49E-05	2.76E-06	0.0233011	0.001036	0.221953	0.00645	0.902649	2.54759	0.007065808	96.9926	0	0	1				8.93E-08	5.654409	0.372623	0.000139073	0
4408960.5		4881	0	0.734	50000.16	9.40E-06	0.685194	0.0118852	0.000145683	1.84E-06	0.0275761	0.0007395	0.368475	0.004313	0.933451	3.15341	0.000251182	99.8849	0	0	1				1.17E-07	9.529825	0.469491	0.000212616	0
4409352.36		4881	0	0.82	50000.16	9.20E-06	0.766645	0.0132733	0.000237457	2.64E-06	0.0334324	0.001048	0.589081	0.006174	1.12701	4.27538	0.002000549	99.1199	0	0	1				1.39E-07	12.77554	0.587745	0.000309735	0
4409966.59		4881	0	1.0252	50000.16	9.40E-06	0.96125	0.0147033	0.000573903	3.66E-06	0.0536762	0.0009482	1.396609	0.008569	1.07362	7.04489	0.001505425	99.4189	0	0	1				1.99E-07	16.94467	0.924001	0.000597038	0
4422058.3		4881	0	1.1466	50000.16	9.20E-06	1.07844	0.018552	0.000840141	4.98E-06	0.0691102	0.001474	2.03504	0.01165	0.64071	8.55355	0.000809437	99.7108	0	0	1				2.39E-07	26.18176	1.16303	0.000779033	0
4422638.06		4881	0	1.2819	50000.16	9.20E-06	1.20773	0.019788	0.001168154	6.42E-06	0.0911459	0.001725	2.82463	0.01493	0.843218	10.0764	0	100	0	0	1				2.80E-07	28.87533	1.45861	0.000967233	0
4423461.45		4881	0	1.6019	50000.16	9.40E-06	1.51738	0.025038	0.001972502	5.87E-06	0.165246	0.003163	4.7809	0.01372	1.01936	12.627	0.001873547	99.5536	0	0	1				3.80E-07	34.05632	2.302457	0.001299935	0
4424134.42		4881	0	1.7921	50000.16	9.20E-06	1.70244	0.0298339	0.002419588	6.88E-06	0.224473	0.002435	5.88631	0.01609	0.985371	13.4935	0.001644062	99.6669	0	0	1				4.38E-07	40.14179	2.89832	0.001421244	0
4424831.69		4881	0	2.003	50000.16	9.30E-06	1.90804	0.0337721	0.00285148	9.26E-06	0.30974	0.003663	6.9822	0.02167	0.850042	13.918	0.002494868	99.5757	0	0	1				5.04E-07	41.82517	3.6406	0.001494457	0
4425740.06		4881	0	2.504	50000.16	9.30E-06	2.39625	0.0428476	0.003720766	6.31E-06	0.6118051	0.003458	9.3184	0.01477	1.311869	14.3402	0.00421047	99.51965	0	0	1				6.53E-07	42.08701	5.74201	0.001552746	0
4426450.31		4881	0	2.7999	50000.16	9.30E-06	2.68907	0.0491251	0.004082766	7.87E-06	0.86684	0.004444	10.4205	0.01841	1.15178	14.1843	0.0039816	99.631	0	0	1				7.37E-07	42.54481	7.23111	0.001518281	0
4426948.67		4881	0	2.7998	50000.16	9.20E-06	2.69129	0.0493459	0.004072457	8.17E-06	0.8691416	0.004451	10.39869	0.01912	0.983943	14.2055	0.004061765	99.6258	0	0	1				7.34E-07	42.76536	7.24305	0.001513198	0
4427790.92		4881	0	2.8692	50000.16	9.20E-06	2.75592	0.0486161	0.004172699	9.28E-06	0.938247	0.004658	10.7024	0.02121	1.25763	14.0654	0	100	0	0	1				7.61E-07	42.32675	7.59509	0.001514086	0
4428464.53		4881	0	2.9026	50000.16	9.30E-06	2.79025	0.0510685	0.004211621	9.04E-06	0.97569	0.004783	10.8309	0.02114	1.66138	14.0937	0.002560897	99.778	0	0	1				7.70E-07	42.81247	7.7855	0.001509406	0
4429139.95		4881	0	2.9379	50000.16	9.20E-06	2.82761	0.0515488	0.004231621	8.18E-06	1.01842	0.004942	10.9204	0.01914	1.05782	14.15	0.003414146	99.7141	0	0	1				7.74E-07	41.99231	7.99538	0.001496536	0
4429980.17		4881	0	3.0067	50000.16	9.30E-06	2.89307	0.0526155	0.004322902	8.23E-06	1.09594	0.005292	11.2115	0.01925	0.741525	14.1141	0.003667583	99.70482	0	0	1				7.96E-07	42.39931	8.36983	0.001494229	0
4430650.45		4881	0	3.0407	50000.16	9.30E-06	2.93037	0.0536562	0.0043512	8.51E-06	1.14235	0.005535	11.3242	0.01992	1.48676	14.1835	0.005114778	99.6014	0	0	1				8.01E-07	42.20573	8.58709	0.001484862	0
4431323.81		4881	0	3.0756	50000.16	9.30E-06	2.96476	0.054045	0.004393261	9.32E-06	1.18598	0.005775	11.4662	0.0218	1.19137	14.0122	0.004272141	99.6706	0	0	1				8.20E-07	42.13977	8.78979	0.001481828	0
4432154.38		4881	0	3.1443	50000.16	9.40E-06	3.02775	0.0552024	0.004468981	1.08E-05	1.26882	0.006236	11.7262	0.02529	1.4404	14.1012	0.005530426	99.5926	0	0	1				8.34E-07	42.10494	9.16725	0.001476009	0
4432821.61		4881	0	3.1788	50000.16	9.30E-06	3.06228	0.05620319	0.004499494	9.13E-06	1.31562	0.006487	11.8444	0.02137	0.857611	14.1281	0.00544709	99.6086	0	0	1				8.41E-07	42.02937	9.37759	0.001469326	0
4433491.22		4881	0	3.2138	50000.16	9.40E-06	3.09531	0.0567913	0.004534263	9.31E-06	1.36109	0.006716	11.9713	0.02179	0.88105	14.0135	0.004652846	99.6699	0	0	1				8.56E-07	42.23925	9.58097	0.001464879	0
4434318.55		4881	0	3.2827	50000.16	9.20E-06	3.16405	0.0578056	0.004602902	1.02E-05	1.45819	0.007145	12.229	0.02394	0.853231	14.0077	0.006288197	99.5715	0	0	1				8.76E-07	42.17282	10.01122	0.00145475	0
4434982.67		4881	0	3.3164	50000.16	9.30E-06	3.19771	0.0590954	0.00459628	9.91E-06	1.50679	0.007344	12.2621	0.02319	0.735486	13.8587	0.003060777	99.7949	0	0	1				8.86E-07	42.30123	10.2253	0.001437368	0
4435648.8		4881	0	3.352	50000.16	9.30E-06	3.23193	0.0590108	0.004661417	9.90E-06	1.55713	0.007543	12.46485	0.02317	1.28327	14.0037	0.005682872	99.628	0	0	1				8.93E-07	41.5911	10.4454	0.001442303	0
4436477.89		4881	0	3.4212	50000.16	9.30E-06	3.3007	0.06057482	0.004687538	1.05E-05	1.6612	0.007925	12.63	0.02448	1.61749	14.069	0.008251654	99.4852	0	0	1				9.01E-07	42.08022	10.8946	0.001420165	0
4437147.59		4881	0	3.4549	50000.16	9.40E-06	3.33773	0.0619374	0.00467884	1.14E-05	1.71902	0.008122	12.6675	0.02678	1.14509	14.04437	0.0100467	99.3882	0	0	1				9.06E-07	42.01946	11.1404	0.001401804	0
[...]
4721800.19		4881	0	1.9412	10000.085	9.20E-06	1.93455	0.0364555	0.009782183	1.94E-05	0.296924	0.00379	23.1872	0.04536	1.29461	49.244	0.003007224	99.5147	0	0	1				4.73E-07	97.96892	3.74247	0.005056575	0
4723078.5		4881	0	1.9847	10000.085	9.20E-06	1.97858	0.0374523	0.0100036	1.84E-05	0.31634	0.004114	23.7248	0.04316	1.08166	48.7686	0.002791098	99.5632	0	0	1				4.89E-07	98.15426	3.91477	0.005055953	0
4724354.22		4881	0	2.0282	10000.085	9.20E-06	2.0216	0.0385762	0.0101848	2.00E-05	0.336615	0.004444	24.1691	0.04674	0.930222	48.7513	0.003369187	99.4944	0	0	1				4.98E-07	97.91055	4.08687	0.005038009	0
4725623.58		4881	0	2.0719	10000.085	9.30E-06	2.06551	0.0393202	0.0103694	2.01E-05	0.35869	0.004908	24.6232	0.04693	1.12373	48.1182	0.003578465	99.4794	0	0	1				5.14E-07	96.68585	4.26635	0.005020274	0
4726882.2		4881	0	2.1152	10000.085	9.40E-06	2.1085	0.0401754	0.01054979	2.11E-05	0.381401	0.0053	25.0679	0.0493	1.38867	47.6531	0.003561131	99.49888	0	0	1				5.29E-07	96.02793	4.44575	0.005003469	0
4728125		4881	0	2.1587	10000.085	9.30E-06	2.15248	0.0411304	0.010675	2.12E-05	0.405428	0.005393	25.38486	0.04954	0.911599	47.22	0.003746298	99.4928	0	0	1				5.40E-07	94.95593	4.63317	0.004959381	0
4729361.88		4881	0	2.2029	10000.085	9.30E-06	2.20006	0.0423801	0.0106546	1.15E-05	0.432089	0.004877	25.3639	0.0268	1.07597	46.05997	0.004217028	99.4504	0	0	1				5.54E-07	94.06427	4.84026	0.004842885	0
4730567.66		4881	0	2.2461	10000.085	9.20E-06	2.24298	0.0431741	0.0106598	1.18E-05	0.456944	0.004056	25.4009	0.02764	0.733605	44.9684	0.003896865	99.5072	0	0	1				5.68E-07	91.62314	5.03097	0.004752519	0
4731757.45		4881	0	2.2903	10000.085	9.40E-06	2.28484	0.0447265	0.0103984	1.13E-05	0.482082	0.003283	24.8142	0.02635	1.679402	42.9327	0.004508679	99.4459	0	0	1				5.81E-07	89.85014	5.22051	0.004551018	0
4732859.92		4881	0	2.3332	10000.085	9.40E-06	2.33229	0.0456544	0.010122	1.40E-05	0.511847	0.002834	24.1973	0.03267	1.47748	41.2187	0.004942071	99.4178	0	0	1				5.90E-07	85.71437	5.43958	0.004339933	0
4733922.19		4881	0	2.3769	10000.085	9.30E-06	2.37391	0.0468038	0.009764237	3.15E-05	0.538798	0.002801	23.3871	0.07361	9.40668	39.3208	0.006525005	99.2577	0	0	1				5.99E-07	81.86434	5.63546	0.004113142	0
4734985.23		4881	0	2.4213	10000.085	9.30E-06	2.41647	0.0549731	0.007512902	4.97E-05	0.567154	0.002954	18.1473	0.1162	40.9583	31.548	0.0145223	98.4587	0	0	1				5.84E-07	78.36881	5.83932	0.003109042	0
4735815.66		4881	0	2.4641	10000.085	9.40E-06	2.45911	0.05235013	0.006645404	1.70E-05	0.596995	0.003181	16.1472	0.03981	3.87494	26.2102	0.007476673	99.1933	0	0	1				6.21E-07	61.92228	6.04723	0.002702359	0
4736550.98		4881	0	2.5082	10000.085	9.20E-06	2.502714	0.0504685	0.006240033	1.16E-05	0.629412	0.003367	15.2311	0.02715	2.11027	24.0886	0.006429255	99.3224	0	0	1				6.36E-07	52.1671	6.26358	0.002493306	0
4737247.39		4881	0	2.5507	10000.085	9.30E-06	2.5454	0.0505078	0.005991192	1.03E-05	0.662595	0.003503	14.682	0.02413	1.10343	22.7234	0.005541273	99.4314	0	0	1				6.49E-07	47.95608	6.47906	0.002353733	0
4737915.22		4881	0	2.5948	10000.085	9.30E-06	2.58656	0.050838	0.005837978	9.06E-06	0.6959797	0.003645	14.3568	0.02121	1.1927	21.655	0.005224367	99.4747	0	0	1				6.66E-07	45.36181	6.69032	0.00225704	0
4738564.84		4881	0	2.6381	10000.085	9.20E-06	2.63124	0.0514461	0.005693562	9.99E-06	0.733933	0.003841	14.0569	0.02337	1.12974	20.8761	0.006129153	99.4039	0	0	1				6.77E-07	43.34999	6.92344	0.00216383	0
4739202.56		4881	0	2.6816	10000.085	9.20E-06	2.67227	0.0522315	0.005598381	9.49E-06	0.770452	0.004084	13.8707	0.0222	0.388473	20.1307	0.005485015	99.4785	0	0	1				6.92E-07	41.66312	7.14101	0.002094993	0
4739828.63		4881	0	2.7261	10000.085	9.30E-06	2.71948	0.0531318	0.005514866	1.05E-05	0.8148078	0.004499	13.7196	0.02458	0.784971	19.6411	0.005809071	99.46838	0	0	1				7.02E-07	40.40886	7.39556	0.002027913	0
4740439.66		4881	0	2.7683	10000.085	9.20E-06	2.76388	0.0536072	0.00543744	9.48E-06	0.85868	0.005031	13.5823	0.02219	0.802433	18.9618	0.005395909	99.5177	0	0	1				7.19E-07	39.07638	7.63902	0.001967324	0
4744058.23		4881	0	2.8133	10000.085	9.40E-06	2.806	0.0542421	0.005368786	9.70E-06	0.901952	0.005566	13.46491	0.0227	0.8467564	18.4063	0.004490463	99.60851	0	0	1				7.34E-07	37.80595	7.87362	0.001913326	0
4744648.13		4881	0	2.8564	10000.085	9.20E-06	2.85129	0.0548848	0.005318351	1.08E-05	0.950258	0.006074	13.3952	0.02526	0.794827	17.99138	0.005482586	99.5361	0	0	1				7.48E-07	36.80925	8.129839	0.001865246	0
4745228.39		4881	0	2.9	10000.085	9.40E-06	2.89478	0.05599946	0.005271546	1.07E-05	0.998102	0.006394	13.33352	0.02497	0.951719	17.7105	0.005805138	99.5251	0	0	1				7.56E-07	36.23332	8.37978	0.00182105	0
4745495.11		4881	0	2.9009	10000.085	9.30E-06	2.89576	0.05552423	0.005275462	1.05E-05	0.999218	0.006399	13.3438	0.02454	0.580527	17.5287	0.003198281	99.73612	0	0	1				7.63E-07	35.21067	8.385406	0.001821791	0
4745497.58	Error: Warning: Current field is 10000.085 Oe;
4745498.05	Error: but addenda was obtained at 20000.107 Oe.
4745933.42		4881	0	2.9998	10000.085	9.20E-06	2.9949	0.0581865	0.005177768	9.34E-06	1.11245	0.006527	13.2284	0.02186	1.1518	16.8518	0.005708323	99.5589	0	0	1				7.88E-07	51.55745	8.96943	0.001728862	0
4746079.05		4881	0	3.0012	10000.085	9.30E-06	2.99645	0.0576564	0.005160173	9.15E-06	1.11444	0.006526	13.1892	0.02141	0.461927	16.8831	0.006844936	99.474	0	0	1				7.85E-07	50.55547	8.97873	0.001722094	0
4746225.13		4881	0	3.0005	10000.085	9.40E-06	2.99403	0.0574036	0.005166402	9.36E-06	1.11151	0.006528	13.2009	0.0219	0.865483	16.8893	0.007984769	99.3843	0	0	1				7.86E-07	50.64918	8.96423	0.001725567	0
4746548.95		4881	0	3.1144	10000.085	9.30E-06	3.11049	0.0606668	0.005038531	8.75E-06	1.25571	0.006498	13.0459	0.02046	0.66513	16.0691	0.009178091	99.3406	0	0	1				8.16E-07	50.66794	9.67514	0.001619852	0
4746688.28		4881	0	3.1137	10000.085	9.30E-06	3.10767	0.05953	0.005076531	9.10E-06	1.25235	0.006493	13.1314	0.02129	0.818723	16.0692	0.007156152	99.4821	0	0	1				8.21E-07	48.20726	9.65761	0.00163355	0
4746828.72		4881	0	3.1145	10000.085	9.20E-06	3.10679	0.0595762	0.005087959	9.11E-06	1.25126	0.006491	13.1571	0.02131	1.11402	16.124	0.006644054	99.5197	0	0	1				8.19E-07	48.20767	9.65212	0.001637692	0
4747146.98		4881	0	3.2293	10000.085	9.30E-06	3.22122	0.0625229	0.004984672	9.47E-06	1.397528	0.006737	13.0617	0.02215	0.952108	15.4792	0.008152997	99.4469	0	0	1				8.48E-07	48.37198	10.3762	0.00154745	0
4747283.17		4881	0	3.229	10000.085	9.30E-06	3.21661	0.061743	0.005004832	9.84E-06	1.39172	0.006725	13.103	0.02302	1.21703	15.4014	0.006186714	99.5758	0	0	1				8.54E-07	46.43757	10.3466	0.001555935	0
4747419		4881	0	3.2293	10000.085	9.30E-06	3.22133	0.0617981	0.004984087	1.00E-05	1.39791	0.006738	13.0607	0.02339	0.91318	15.4181	0.005345645	99.6365	0	0	1				8.50E-07	46.20405	10.377	0.001547214	0
4747732.58		4881	0	3.3429	10000.085	9.40E-06	3.32965	0.0646695	0.004901425	9.05E-06	1.54669	0.007195	13.016	0.02117	0.842844	14.91	0.006806472	99.563	0	0	1				8.76E-07	46.25419	11.08656	0.001472055	0
4747865.66		4881	0	3.3434	10000.085	9.30E-06	3.32903	0.0637932	0.004904103	9.39E-06	1.545847	0.007191	13.0214	0.02197	0.647503	14.7959	0.005076347	99.6715	0	0	1				8.82E-07	44.73003	11.08246	0.001473131	0
4747995.67		4881	0	3.3423	10000.085	9.40E-06	3.329837	0.0636406	0.004873861	9.67E-06	1.54725	0.007197	12.9521	0.02264	0.8059203	14.8015	0.009538343	99.3853	0	0	1				8.79E-07	44.38774	11.0878	0.001463694	0
4748304.59		4881	0	3.4575	10000.085	9.30E-06	3.44311	0.0668828	0.004775612	9.43E-06	1.72092	0.008393	12.89585	0.02207	0.813392	14.3967	0.0110501	99.334	0	0	1				9.00E-07	44.40437	11.855	0.001387004	0
4748432.81		4881	0	3.4569	10000.085	9.30E-06	3.44126	0.0663345	0.00480004	1.01E-05	1.71807	0.00837	12.9502	0.02353	1.21741	14.34844	0.007055915	99.5717	0	0	1				9.05E-07	43.19024	11.84229	0.001394848	0
4748560.53		4881	0	3.4566	10000.085	9.30E-06	3.44725	0.0661561	0.004784468	1.07E-05	1.72772	0.008448	12.9234	0.02509	1.02935	14.3871	0.009511778	99.4275	0	0	1				9.02E-07	43.04532	11.8836	0.001387908	0
4748862.98		4881	0	3.5711	10000.085	9.30E-06	3.55177	0.0687887	0.00469282	1.01E-05	1.90051	0.009522	12.8817	0.02357	1.18571	13.83645	0.009617941	99.4459	0	0	1				9.35E-07	43.16117	12.6151	0.001321262	0
4748988.13		4881	0	3.5706	10000.085	9.30E-06	3.55297	0.0680908	0.004728415	1.02E-05	1.902761	0.009529	12.9673	0.02387	0.825473	13.8952	0.007508086	99.5676	0	0	1				9.36E-07	41.50935	12.6236	0.001330836	0
4749114.77		4881	0	3.5709	10000.085	9.40E-06	3.555352	0.0662318	0.004727454	1.33E-05	1.90798	0.009544	12.9702	0.02958	0.694276	13.75788	0	100	0	0	1				9.43E-07	41.68556	12.6405	0.001329673	0